task_order,stim_time,inter_stim_time,x_pos,y_pos,stim_event,main_loop.thisRepN,main_loop.thisTrialN,main_loop.thisN,main_loop.thisIndex,vSAT_loop.thisRepN,vSAT_loop.thisTrialN,vSAT_loop.thisN,vSAT_loop.thisIndex,instructions_text.started,instructions_text.stopped,instructions_resp.keys,instructions_resp.rt,instructions_resp.started,instructions_resp.stopped,experiment_SAT_text.started,experiment_SAT_text.stopped,experiment_vSAT_text.started,experiment_vSAT_text.stopped,experiment_instructions_rep.keys,experiment_instructions_rep.rt,experiment_instructions_rep.started,experiment_instructions_rep.stopped,inter_stim_text.started,inter_stim_text.stopped,vSAT_square.started,vSAT_square.stopped,delay_text.started,delay_text.stopped,response_cue_sound.started,response_cue_sound.stopped,mouse_resp.x,mouse_resp.y,mouse_resp.leftButton,mouse_resp.midButton,mouse_resp.rightButton,mouse_resp.started,mouse_resp.stopped,stimuli_background.started,stimuli_background.stopped,feedback_sound.started,feedback_sound.stopped,participant,session,date,expName,psychopyVersion,frameRate,
,,,,,,,,,,,,,,9.511170000012498,None,space,0.9033178000245243,9.511170000012498,None,,,,,,,,,,,,,,,,,,,,,,,,,,,,,001,2022_Mar_02_1328,SAT,2021.2.3,143.71553516701587,
vSAT1,0.017,2,-0.25,0.25,0,0,0,0,0,0,0,0,0,,,,,,,10.446647399978247,None,10.446647399978247,None,space,0.4653738999622874,10.446647399978247,None,10.940458600001875,None,12.94267389999004,None,12.963428699993528,None,13.067607579985633,None,-0.3175926,0.34907407,0,0,0,0.0036246399977244437,None,13.511968999984674,None,14.997896279965062,None,,001,2022_Mar_02_1328,SAT,2021.2.3,143.71553516701587,
vSAT1,0.017,3,-0.25,0.25,0,0,0,0,0,0,1,1,1,,,,,,,,,,,,,,,15.51419919996988,None,18.517980900011025,None,18.53879959997721,None,18.64280457998393,None,-0.3175926,0.34907407,0,0,0,0.0005107400356791914,None,19.08323119999841,None,20.57305677997647,None,,001,2022_Mar_02_1328,SAT,2021.2.3,143.71553516701587,
vSAT1,0.05,2,0.25,0.25,0,0,0,0,0,0,2,2,2,,,,,,,,,,,,,,,21.084295700013172,None,23.086599399975967,None,23.142041500017513,None,23.24617117998423,None,-0.3175926,0.34907407,0,0,0,0.001964840048458427,None,23.69180349999806,None,25.176262379973195,None,,001,2022_Mar_02_1328,SAT,2021.2.3,143.71553516701587,
vSAT1,0.028999999999999998,3,-0.25,-0.25,1,0,0,0,0,0,3,3,3,,,,,,,,,,,,,,,25.694050499994773,None,28.696560700016562,None,28.731168199970853,None,28.835473479994107,None,-0.3175926,0.34907407,0,0,0,0.0011782399960793555,None,29.28225809999276,None,30.76549027999863,None,,001,2022_Mar_02_1328,SAT,2021.2.3,143.71553516701587,
vSAT1,0.017,2,-0.25,-0.25,1,0,0,0,0,0,4,4,4,,,,,,,,,,,,,,,31.28409400000237,None,33.28592499997467,None,33.306664799980354,None,33.41088517999742,None,-0.3175926,0.34907407,0,0,0,0.006791019986849278,None,33.85215519997291,None,35.34094417997403,None,,001,2022_Mar_02_1328,SAT,2021.2.3,143.71553516701587,
vSAT1,0.017,2,0.0,0.0,0,0,0,0,0,0,5,5,5,,,,,,,,,,,,,,,35.852214200014714,None,37.85446659999434,None,37.875240799970925,None,37.97938078001607,None,-0.3175926,0.34907407,0,0,0,0.0052854400128126144,None,38.42198869999265,None,39.90958237997256,None,,001,2022_Mar_02_1328,SAT,2021.2.3,143.71553516701587,
vSAT1,0.017,2,-0.25,-0.25,0,0,0,0,0,0,6,6,6,,,,,,,,,,,,,,,40.42402179999044,None,42.43003069999395,None,42.45072819996858,None,42.5548648799886,None,-0.3175926,0.34907407,0,0,0,0.0009173399885185063,None,43.00201880000532,None,44.485071679984685,None,,001,2022_Mar_02_1328,SAT,2021.2.3,143.71553516701587,
vSAT1,0.028999999999999998,2,0.25,-0.25,1,0,0,0,0,0,7,7,7,,,,,,,,,,,,,,,45.0037729999749,None,47.00547039997764,None,47.04009209998185,None,47.144306980015244,None,-0.3175926,0.34907407,0,0,0,0.0006528400117531419,None,47.59085530001903,None,49.07443477999186,None,,001,2022_Mar_02_1328,SAT,2021.2.3,143.71553516701587,
vSAT1,0.028999999999999998,2,-0.25,-0.25,0,0,0,0,0,0,8,8,8,,,,,,,,,,,,,,,49.59393600001931,None,51.59484249999514,None,51.62950440001441,None,51.733658879995346,None,-0.3175926,0.34907407,0,0,0,0.0006323400302790105,None,52.173936799983494,None,53.66382577997865,None,,001,2022_Mar_02_1328,SAT,2021.2.3,143.71553516701587,
vSAT1,0.028999999999999998,1,-0.25,-0.25,1,0,0,0,0,0,9,9,9,,,,,,,,,,,,,,,54.174196999985725,None,55.17752550001023,None,55.21209510002518,None,55.31631547998404,None,-0.3175926,0.34907407,0,0,0,0.0018400399712845683,None,55.76255200000014,None,57.24647797999205,None,,001,2022_Mar_02_1328,SAT,2021.2.3,143.71553516701587,
vSAT1,0.028999999999999998,1,-0.25,0.25,0,0,0,0,0,0,10,10,10,,,,,,,,,,,,,,,57.76389469997957,None,58.76705740002217,None,58.80167660000734,None,58.90581958001712,None,-0.3175926,0.34907407,0,0,0,0.0020377400214783847,None,59.35098420002032,None,60.836144279979635,None,,001,2022_Mar_02_1328,SAT,2021.2.3,143.71553516701587,
vSAT1,0.028999999999999998,3,0.25,0.25,0,0,0,0,0,0,11,11,11,,,,,,,,,,,,,,,61.35376480000559,None,64.35617959999945,None,64.38413690001471,None,64.4880014800001,None,-0.3175926,0.34907407,0,0,0,0.0038909399299882352,None,64.93213749997085,None,66.41826837998815,None,,001,2022_Mar_02_1328,SAT,2021.2.3,143.71553516701587,
vSAT1,0.017,2,0.25,-0.25,1,0,0,0,0,0,12,12,12,,,,,,,,,,,,,,,66.93396340002073,None,68.93871409998974,None,68.9595139999874,None,69.06358118000207,None,-0.3175926,0.34907407,0,0,0,0.0014338400214910507,None,69.50298519997159,None,70.99374268000247,None,,001,2022_Mar_02_1328,SAT,2021.2.3,143.71553516701587,
vSAT1,0.017,1,0.0,0.0,1,0,0,0,0,0,13,13,13,,,,,,,,,,,,,,,71.50405559997307,None,72.5073066999903,None,72.52816559997154,None,72.63235377997626,None,-0.3175926,0.34907407,0,0,0,0.006585219991393387,None,73.07351229997585,None,74.56254998000804,None,,001,2022_Mar_02_1328,SAT,2021.2.3,143.71553516701587,
vSAT1,0.017,2,-0.25,-0.25,1,0,0,0,0,0,14,14,14,,,,,,,,,,,,,,,75.07374129997334,None,77.07596059999196,None,77.09673380001914,None,77.20088338002097,None,-0.3175926,0.34907407,0,0,0,0.006648020003922284,None,77.64223519997904,None,79.13104268000461,None,,001,2022_Mar_02_1328,SAT,2021.2.3,143.71553516701587,
vSAT1,0.05,1,0.25,-0.25,0,0,0,0,0,0,15,15,15,,,,,,,,,,,,,,,79.64221999997972,None,80.64477309997892,None,80.70021470001666,None,80.80436877999455,None,-0.3175926,0.34907407,0,0,0,0.001107439980842173,None,81.24407610000344,None,82.73449837998487,None,,001,2022_Mar_02_1328,SAT,2021.2.3,143.71553516701587,
vSAT1,0.017,1,0.0,0.0,0,0,0,0,0,0,16,16,16,,,,,,,,,,,,,,,83.24388359999284,None,84.24815529998159,None,84.26880359998904,None,84.37309077999089,None,-0.3175926,0.34907407,0,0,0,0.0009732399485073984,None,84.81280179996975,None,86.30326547997538,None,,001,2022_Mar_02_1328,SAT,2021.2.3,143.71553516701587,
vSAT1,0.028999999999999998,2,-0.25,-0.25,0,0,0,0,0,0,17,17,17,,,,,,,,,,,,,,,86.81414969998877,None,88.81665240001166,None,88.85137980000582,None,88.95556838001357,None,-0.3175926,0.34907407,0,0,0,0.0018895399989560246,None,89.40209160000086,None,90.88572577998275,None,,001,2022_Mar_02_1328,SAT,2021.2.3,143.71553516701587,
vSAT1,0.017,2,-0.25,0.25,1,0,0,0,0,0,18,18,18,,,,,,,,,,,,,,,91.40454800002044,None,93.40611059998628,None,93.42684359999839,None,93.53103577997535,None,-0.3175926,0.34907407,0,0,0,0.0004041400388814509,None,93.97146989998873,None,95.46118827996543,None,,001,2022_Mar_02_1328,SAT,2021.2.3,143.71553516701587,
vSAT1,0.05,2,0.0,0.0,0,0,0,0,0,0,19,19,19,,,,,,,,,,,,,,,95.97276909998618,None,97.97464909998234,None,98.0301234999788,None,98.13427578000119,None,-0.3175926,0.34907407,0,0,0,0.0006541399634443223,None,98.58166550000897,None,100.06448797998019,None,,001,2022_Mar_02_1328,SAT,2021.2.3,143.71553516701587,
vSAT1,0.017,1,-0.25,0.25,1,0,0,0,0,0,20,20,20,,,,,,,,,,,,,,,100.57386010000482,None,101.57812349998858,None,101.5989486000035,None,101.70311358000617,None,-0.3175926,0.34907407,0,0,0,0.0007993399631232023,None,102.14289329998428,None,103.63320857996587,None,,001,2022_Mar_02_1328,SAT,2021.2.3,143.71553516701587,
vSAT1,0.017,2,0.25,-0.25,1,0,0,0,0,0,21,21,21,,,,,,,,,,,,,,,104.14403470000252,None,106.1466748000239,None,106.16740839998238,None,106.27155448001577,None,-0.3175926,0.34907407,0,0,0,0.0065557199995964766,None,106.71268120000605,None,108.20160778000718,None,,001,2022_Mar_02_1328,SAT,2021.2.3,143.71553516701587,
vSAT1,0.05,3,-0.25,-0.25,0,0,0,0,0,0,22,22,22,,,,,,,,,,,,,,,108.71409750002204,None,111.71497959998669,None,111.77047440002207,None,111.87464147998253,None,-0.3175926,0.34907407,0,0,0,0.0006235399632714689,None,112.3215178999817,None,113.80483987997286,None,,001,2022_Mar_02_1328,SAT,2021.2.3,143.71553516701587,
vSAT1,0.028999999999999998,2,-0.25,-0.25,0,0,0,0,0,0,23,23,23,,,,,,,,,,,,,,,114.31436429999303,None,116.31837410002481,None,116.35297569999238,None,116.45706927997526,None,-0.3175926,0.34907407,0,0,0,0.002768239995930344,None,116.90214259998174,None,118.38725908001652,None,,001,2022_Mar_02_1328,SAT,2021.2.3,143.71553516701587,
vSAT1,0.028999999999999998,3,0.25,0.25,0,0,0,0,0,0,24,24,24,,,,,,,,,,,,,,,118.9040370999719,None,121.90745830000378,None,121.94210159999784,None,122.04624007997336,None,-0.3175926,0.34907407,0,0,0,0.002408639993518591,None,122.49183680000715,None,123.97643477999372,None,,001,2022_Mar_02_1328,SAT,2021.2.3,143.71553516701587,
vSAT1,0.017,2,-0.25,-0.25,0,0,0,0,0,0,25,25,25,,,,,,,,,,,,,,,124.49363470001845,None,126.49681729997974,None,126.51757019996876,None,126.6217903799843,None,-0.3175926,0.34907407,0,0,0,0.006426720006857067,None,127.06308659998467,None,128.55191457999172,None,,001,2022_Mar_02_1328,SAT,2021.2.3,143.71553516701587,
vSAT1,0.017,1,-0.25,-0.25,1,0,0,0,0,0,26,26,26,,,,,,,,,,,,,,,129.06323149998207,None,130.06550419999985,None,130.08636090002256,None,130.19058307999512,None,-0.3175926,0.34907407,0,0,0,0.006939520011655986,None,130.63158099999418,None,132.12067858001683,None,,001,2022_Mar_02_1328,SAT,2021.2.3,143.71553516701587,
vSAT1,0.017,1,0.0,0.0,0,0,0,0,0,0,27,27,27,,,,,,,,,,,,,,,132.63191769999685,None,133.63432900002226,None,133.65505659999326,None,133.75926058000186,None,-0.3175926,0.34907407,0,0,0,0.005556419957429171,None,134.20103609998478,None,135.68945617997088,None,,001,2022_Mar_02_1328,SAT,2021.2.3,143.71553516701587,
vSAT1,0.017,1,-0.25,0.25,1,0,0,0,0,0,28,28,28,,,,,,,,,,,,,,,136.20183540001744,None,137.20306329999585,None,137.2238375999732,None,137.32798498001648,None,-0.3175926,0.34907407,0,0,0,0.0037423400208353996,None,137.77224640001077,None,139.2582589800004,None,,001,2022_Mar_02_1328,SAT,2021.2.3,143.71553516701587,
vSAT1,0.05,1,0.25,-0.25,0,0,0,0,0,0,29,29,29,,,,,,,,,,,,,,,139.77427390002413,None,140.77896640001563,None,140.83423019998008,None,140.9384263799875,None,-0.3175926,0.34907407,0,0,0,0.005079540016595274,None,141.3817087999778,None,142.86858948000008,None,,001,2022_Mar_02_1328,SAT,2021.2.3,143.71553516701587,
vSAT1,,,,,,0,0,0,0,,,,,,,,,,,,,,,,,,,,,,,,,,,,,,,,,,,,,,,001,2022_Mar_02_1328,SAT,2021.2.3,143.71553516701587,
SAT2,0.028999999999999998,1,0,0,1,0,1,1,1,0,0,0,0,,,,,,,143.39765920001082,None,143.39765920001082,None,space,2.3905354000162333,143.39765920001082,None,145.81538410001667,None,146.81924899999285,None,146.85403240000596,None,146.95804917998612,None,-0.3175926,0.34907407,0,0,0,0.003947939956560731,None,147.40132649999578,None,148.88839577999897,None,,001,2022_Mar_02_1328,SAT,2021.2.3,143.71553516701587,
SAT2,0.05,2,0,0,1,0,1,1,1,0,1,1,1,,,,,,,,,,,,,,,149.40308379998896,None,151.4085932999733,None,151.46417940000538,None,151.56828388001304,None,-0.3175926,0.34907407,0,0,0,0.004410539928358048,None,152.01177480001934,None,153.4984257799806,None,,001,2022_Mar_02_1328,SAT,2021.2.3,143.71553516701587,
SAT2,0.028999999999999998,1,0,0,1,0,1,1,1,0,2,2,2,,,,,,,,,,,,,,,154.01419999997597,None,155.01909590000287,None,155.05374020000454,None,155.15790967998328,None,-0.3175926,0.34907407,0,0,0,0.004092040006071329,None,155.6012757999706,None,157.08804917999078,None,,001,2022_Mar_02_1328,SAT,2021.2.3,143.71553516701587,
SAT2,0.028999999999999998,1,0,0,0,0,1,1,1,0,3,3,3,,,,,,,,,,,,,,,157.60444770002505,None,158.60866339999484,None,158.64312979998067,None,158.74736957997084,None,-0.3175926,0.34907407,0,0,0,0.0038283399771898985,None,159.19186000002082,None,160.6776105799945,None,,001,2022_Mar_02_1328,SAT,2021.2.3,143.71553516701587,
SAT2,0.05,2,0,0,0,0,1,1,1,0,4,4,4,,,,,,,,,,,,,,,161.19429319998017,None,163.19800719997147,None,163.2534663999686,None,163.35770857997704,None,-0.3175926,0.34907407,0,0,0,0.003647839999757707,None,163.80199589999393,None,165.28784047998488,None,,001,2022_Mar_02_1328,SAT,2021.2.3,143.71553516701587,
SAT2,0.028999999999999998,1,0,0,0,0,1,1,1,0,5,5,5,,,,,,,,,,,,,,,165.8042213000008,None,166.80838230001973,None,166.843056600017,None,166.94721457996638,None,-0.3175926,0.34907407,0,0,0,0.00398813997162506,None,167.3905743000214,None,168.8773514800123,None,,001,2022_Mar_02_1328,SAT,2021.2.3,143.71553516701587,
SAT2,0.05,2,0,0,1,0,1,1,1,0,6,6,6,,,,,,,,,,,,,,,169.39368149999063,None,171.39771039999323,None,171.45323139999527,None,171.55739918001927,None,-0.3175926,0.34907407,0,0,0,0.0037165399990044534,None,172.00164699996822,None,173.48756327998126,None,,001,2022_Mar_02_1328,SAT,2021.2.3,143.71553516701587,
SAT2,0.017,2,0,0,0,0,1,1,1,0,7,7,7,,,,,,,,,,,,,,,174.00356969999848,None,176.00804839999182,None,176.0287943999865,None,176.1328294799896,None,-0.3175926,0.34907407,0,0,0,0.001407640054821968,None,176.57228849997045,None,178.0630354799796,None,,001,2022_Mar_02_1328,SAT,2021.2.3,143.71553516701587,
SAT2,0.017,1,0,0,1,0,1,1,1,0,8,8,8,,,,,,,,,,,,,,,178.57329440000467,None,179.57672489999095,None,179.59738920000382,None,179.70167167996988,None,-0.3175926,0.34907407,0,0,0,0.006610419950447977,None,180.14288020000095,None,181.6318669799948,None,,001,2022_Mar_02_1328,SAT,2021.2.3,143.71553516701587,
SAT2,0.028999999999999998,2,0,0,0,0,1,1,1,0,9,9,9,,,,,,,,,,,,,,,182.14325620001182,None,184.1452446000185,None,184.17992329999106,None,184.28405797999585,None,-0.3175926,0.34907407,0,0,0,0.0006853399681858718,None,184.73071360000176,None,186.21424328000285,None,,001,2022_Mar_02_1328,SAT,2021.2.3,143.71553516701587,
SAT2,0.017,1,0,0,0,0,1,1,1,0,10,10,10,,,,,,,,,,,,,,,186.72298959997715,None,187.72786250000354,None,187.74865869997302,None,187.85278707998805,None,-0.3175926,0.34907407,0,0,0,0.001042340009007603,None,188.29250139999203,None,189.7829763799673,None,,001,2022_Mar_02_1328,SAT,2021.2.3,143.71553516701587,
SAT2,0.017,1,0,0,0,0,1,1,1,0,11,11,11,,,,,,,,,,,,,,,190.2929628000129,None,191.29663870000513,None,191.31744369998341,None,191.42156327998964,None,-0.3175926,0.34907407,0,0,0,0.006269120029173791,None,191.8633146000211,None,193.35171848000027,None,,001,2022_Mar_02_1328,SAT,2021.2.3,143.71553516701587,
SAT2,0.028999999999999998,1,0,0,0,0,1,1,1,0,12,12,12,,,,,,,,,,,,,,,193.86300100001972,None,194.86532280000392,None,194.90002860000823,None,195.00420198001666,None,-0.3175926,0.34907407,0,0,0,0.0006727399886585772,None,195.45076069998322,None,196.93434718000935,None,,001,2022_Mar_02_1328,SAT,2021.2.3,143.71553516701587,
SAT2,0.017,2,0,0,0,0,1,1,1,0,13,13,13,,,,,,,,,,,,,,,197.44366679998348,None,199.44785330002196,None,199.46860049996758,None,199.5727345799678,None,-0.3175926,0.34907407,0,0,0,0.0006775400252081454,None,200.01269980001962,None,201.50293027999578,None,,001,2022_Mar_02_1328,SAT,2021.2.3,143.71553516701587,
SAT2,0.028999999999999998,1,0,0,1,0,1,1,1,0,14,14,14,,,,,,,,,,,,,,,202.0134762999951,None,203.01654989999952,None,203.0512788000051,None,203.1554074800224,None,-0.3175926,0.34907407,0,0,0,0.001882839947938919,None,203.60059320001164,None,205.08556778001366,None,,001,2022_Mar_02_1328,SAT,2021.2.3,143.71553516701587,
SAT2,0.05,3,0,0,1,0,1,1,1,0,15,15,15,,,,,,,,,,,,,,,205.60380510002142,None,208.60573439998552,None,208.6612341,None,208.7654160800157,None,-0.3175926,0.34907407,0,0,0,0.0016256399685516953,None,209.21191939996788,None,210.69558857998345,None,,001,2022_Mar_02_1328,SAT,2021.2.3,143.71553516701587,
SAT2,0.017,3,0,0,1,0,1,1,1,0,16,16,16,,,,,,,,,,,,,,,211.21345069998642,None,214.21574780001538,None,214.23652480001329,None,214.34068278002087,None,-0.3175926,0.34907407,0,0,0,0.00024933996610343456,None,214.78159829997458,None,216.27089738001814,None,,001,2022_Mar_02_1328,SAT,2021.2.3,143.71553516701587,
SAT2,0.05,3,0,0,0,0,1,1,1,0,17,17,17,,,,,,,,,,,,,,,216.78277599997818,None,219.78418650000822,None,219.8396105999709,None,219.9437315799878,None,-0.3175926,0.34907407,0,0,0,0.0034730600309558213,None,220.3805333999917,None,221.87397077999776,None,,001,2022_Mar_02_1328,SAT,2021.2.3,143.71553516701587,
SAT2,0.017,1,0,0,1,0,1,1,1,0,18,18,18,,,,,,,,,,,,,,,222.38349169999128,None,223.38759019999998,None,223.40847989998292,None,223.51248997997027,None,-0.3175926,0.34907407,0,0,0,0.0008556399843655527,None,223.95246000000043,None,225.4427266800194,None,,001,2022_Mar_02_1328,SAT,2021.2.3,143.71553516701587,
SAT2,0.05,2,0,0,1,0,1,1,1,0,19,19,19,,,,,,,,,,,,,,,225.95332819997566,None,227.9561124999891,None,228.01161410001805,None,228.11586727999384,None,-0.3175926,0.34907407,0,0,0,0.0018864400335587561,None,228.56192349997582,None,230.04610997997224,None,,001,2022_Mar_02_1328,SAT,2021.2.3,143.71553516701587,
SAT2,0.05,3,0,0,1,0,1,1,1,0,20,20,20,,,,,,,,,,,,,,,230.56389079999644,None,233.5661403000122,None,233.6217014999711,None,233.7257900799741,None,-0.3175926,0.34907407,0,0,0,0.0020968400058336556,None,234.17132859997218,None,235.65595008002128,None,,001,2022_Mar_02_1328,SAT,2021.2.3,143.71553516701587,
SAT2,0.05,1,0,0,0,0,1,1,1,0,21,21,21,,,,,,,,,,,,,,,236.17393589997664,None,237.176571900025,None,237.2320519000059,None,237.33615867997287,None,-0.3175926,0.34907407,0,0,0,0.003148040035739541,None,237.78056859999197,None,239.26635468000313,None,,001,2022_Mar_02_1328,SAT,2021.2.3,143.71553516701587,
SAT2,0.028999999999999998,3,0,0,0,0,1,1,1,0,22,22,22,,,,,,,,,,,,,,,239.78267699998105,None,242.7865595999756,None,242.821202000021,None,242.9254310799879,None,-0.3175926,0.34907407,0,0,0,0.0021133400150574744,None,243.37097180000274,None,244.85555907996604,None,,001,2022_Mar_02_1328,SAT,2021.2.3,143.71553516701587,
SAT2,0.017,1,0,0,1,0,1,1,1,0,23,23,23,,,,,,,,,,,,,,,245.3738013000111,None,246.3760947000119,None,246.39688120002393,None,246.50109597999835,None,-0.20833333,0.27962962,0,0,0,0.0060195199912413955,None,246.94270549999783,None,248.43122108001262,None,,001,2022_Mar_02_1328,SAT,2021.2.3,143.71553516701587,
,,,,,,,,,,,,,,,,,,,,,,,,,,,,248.94205080001848,None,249.94488650001585,None,249.9656621000031,None,250.0698145799688,None,,,,,,,,,,,,,,,,,,
