task_order,stim_time,inter_stim_time,x_pos,y_pos,stim_event,main_loop.thisRepN,main_loop.thisTrialN,main_loop.thisN,main_loop.thisIndex,vSAT_loop.thisRepN,vSAT_loop.thisTrialN,vSAT_loop.thisN,vSAT_loop.thisIndex,instructions_text.started,instructions_text.stopped,instructions_resp.keys,instructions_resp.rt,instructions_resp.started,instructions_resp.stopped,experiment_SAT_text.started,experiment_SAT_text.stopped,experiment_vSAT_text.started,experiment_vSAT_text.stopped,experiment_instructions_rep.keys,experiment_instructions_rep.rt,experiment_instructions_rep.started,experiment_instructions_rep.stopped,inter_stim_text.started,inter_stim_text.stopped,vSAT_square.started,vSAT_square.stopped,delay_text.started,delay_text.stopped,response_cue_sound.started,response_cue_sound.stopped,mouse_resp.x,mouse_resp.y,mouse_resp.leftButton,mouse_resp.midButton,mouse_resp.rightButton,mouse_resp.started,mouse_resp.stopped,stimuli_background.started,stimuli_background.stopped,feedback_sound.started,feedback_sound.stopped,mouse_resp.clicked_name,participant,session,date,expName,psychopyVersion,frameRate,
,,,,,,,,,,,,,,11.790561100002378,None,space,9.060065300000133,11.790561100002378,None,,,,,,,,,,,,,,,,,,,,,,,,,,,,,z,001,2022_Feb_10_0931,SAT,2021.2.3,144.03535201086999,
vSAT1,0.017,2,-0.25,0.25,0,0,0,0,0,0,0,0,0,,,,,,,20.8885081000044,None,20.8885081000044,None,space,2.3525263000046834,20.8885081000044,None,23.262812200002372,None,25.271386899985373,None,25.290488300001016,None,25.394606889993884,None,0.4324074,-0.03888889,0,0,0,0.006542459974298254,None,25.83691579999868,None,27.324897789990064,None,,z,001,2022_Feb_10_0931,SAT,2021.2.3,144.03535201086999,
vSAT1,0.017,3,-0.25,0.25,0,0,0,0,0,0,1,1,1,,,,,,,,,,,,,,,27.837815499980934,None,30.838109799980884,None,30.85894139998709,None,30.963027889997466,None,0.4324074,-0.03888889,0,0,0,0.006697360018733889,None,31.40423829999054,None,32.89326428998611,None,,z,001,2022_Feb_10_0931,SAT,2021.2.3,144.03535201086999,
vSAT1,0.05,2,0.25,0.25,0,0,0,0,0,0,2,2,2,,,,,,,,,,,,,,,33.408460799983004,None,35.41354589999537,None,35.469027699989965,None,35.573257689987074,None,0.25092593,0.07685185,0,0,0,8.977000834420323e-05,None,36.01422610000009,None,37.5034511899983,None,,z,001,2022_Feb_10_0931,SAT,2021.2.3,144.03535201086999,
vSAT1,0.028999999999999998,3,-0.25,-0.25,1,0,0,0,0,0,3,3,3,,,,,,,,,,,,,,,38.01755059999414,None,41.01673989999108,None,41.05125570000382,None,41.15550358999171,None,0.26296297,0.07685185,0,0,0,0.0012288699799682945,None,41.595116499986034,None,43.08572628999245,None,,z,001,2022_Feb_10_0931,SAT,2021.2.3,144.03535201086999,
vSAT1,0.017,2,-0.25,-0.25,1,0,0,0,0,0,4,4,4,,,,,,,,,,,,,,,43.596806499990635,None,45.59901269999682,None,45.619944699981716,None,45.72407028999878,None,0.19629629,0.07037037,1,0,0,0.0062533600139431655,None,46.16575489999377,None,46.38343138999771,None,stimuli_background,z,001,2022_Feb_10_0931,SAT,2021.2.3,144.03535201086999,
vSAT1,0.017,2,0.0,0.0,0,0,0,0,0,0,5,5,5,,,,,,,,,,,,,,,46.897436500003096,None,48.89714300000924,None,48.91784899999038,None,49.022016090003305,None,0.19629629,0.07037037,1,0,0,0.0054137600236572325,None,49.46491989999777,None,49.8343259800109,None,stimuli_background,z,001,2022_Feb_10_0931,SAT,2021.2.3,144.03535201086999,
vSAT1,0.017,2,-0.25,-0.25,0,0,0,0,0,0,6,6,6,,,,,,,,,,,,,,,50.34715499999584,None,52.3478088999982,None,52.36863099999027,None,52.47268538998905,None,0.19629629,0.07037037,0,0,1,0.006672460032859817,None,52.91470079999999,None,53.09068788999575,None,stimuli_background,z,001,2022_Feb_10_0931,SAT,2021.2.3,144.03535201086999,
vSAT1,0.028999999999999998,2,0.25,-0.25,1,0,0,0,0,0,7,7,7,,,,,,,,,,,,,,,53.60827729999437,None,55.611068400001386,None,55.64564319999772,None,55.74975848999456,None,0.19629629,0.0712963,0,0,1,0.002979070006404072,None,56.1952886999934,None,56.38156948999385,None,stimuli_background,z,001,2022_Feb_10_0931,SAT,2021.2.3,144.03535201086999,
vSAT1,0.028999999999999998,2,-0.25,-0.25,0,0,0,0,0,0,8,8,8,,,,,,,,,,,,,,,56.89802900000359,None,58.90192699999898,None,58.9367127000005,None,59.04092039000243,None,0.19629629,0.0712963,1,0,0,0.0045189700031187385,None,59.48495079998975,None,59.86704538999474,None,stimuli_background,z,001,2022_Feb_10_0931,SAT,2021.2.3,144.03535201086999,
vSAT1,0.028999999999999998,1,-0.25,-0.25,1,0,0,0,0,0,9,9,9,,,,,,,,,,,,,,,60.38744399999268,None,61.38774310000008,None,61.42239299998619,None,61.526437589997656,None,0.19629629,0.0712963,1,0,0,0.003197780024493113,None,61.96444069998688,None,62.1096919899981,None,stimuli_background,z,001,2022_Feb_10_0931,SAT,2021.2.3,144.03535201086999,
vSAT1,0.028999999999999998,1,-0.25,0.25,0,0,0,0,0,0,10,10,10,,,,,,,,,,,,,,,62.627845399983926,None,63.63023029998294,None,63.664848599990364,None,63.769025389989835,None,0.19629629,0.0712963,1,0,0,0.0031185699917841703,None,64.21419689999311,None,64.38020318000926,None,stimuli_background,z,001,2022_Feb_10_0931,SAT,2021.2.3,144.03535201086999,
vSAT1,0.028999999999999998,3,0.25,0.25,0,0,0,0,0,0,11,11,11,,,,,,,,,,,,,,,64.89416870000423,None,67.89344479999272,None,67.92805019998923,None,68.03218858998734,None,0.19629629,0.0712963,0,0,1,0.005251960013993084,None,68.47489209999912,None,68.62920778999687,None,stimuli_background,z,001,2022_Feb_10_0931,SAT,2021.2.3,144.03535201086999,
vSAT1,0.017,2,0.25,-0.25,1,0,0,0,0,0,12,12,12,,,,,,,,,,,,,,,69.14736939998693,None,71.14963739999803,None,71.17028349998873,None,71.27447158998693,None,0.19629629,0.0712963,1,0,0,0.006199260009452701,None,71.71626529999776,None,71.94790069000446,None,stimuli_background,z,001,2022_Feb_10_0931,SAT,2021.2.3,144.03535201086999,
vSAT1,0.017,1,0.0,0.0,1,0,0,0,0,0,13,13,13,,,,,,,,,,,,,,,72.46847920000437,None,73.46871689998079,None,73.4894612999924,None,73.59363458999432,None,0.19629629,0.0712963,1,0,0,0.006192360044224188,None,74.03522109999903,None,74.57293998998357,None,stimuli_background,z,001,2022_Feb_10_0931,SAT,2021.2.3,144.03535201086999,
vSAT1,0.017,2,-0.25,-0.25,1,0,0,0,0,0,14,14,14,,,,,,,,,,,,,,,75.08663179998985,None,77.08593370000017,None,77.10672759998124,None,77.21097948999959,None,0.19629629,0.0712963,1,0,0,0.004860169981839135,None,77.65437390000443,None,77.96082749000634,None,stimuli_background,z,001,2022_Feb_10_0931,SAT,2021.2.3,144.03535201086999,
vSAT1,0.05,1,0.25,-0.25,0,0,0,0,0,0,15,15,15,,,,,,,,,,,,,,,78.47768710000673,None,79.48130099999253,None,79.53682159999153,None,79.64104328998364,None,0.19629629,0.0712963,1,0,0,0.004899769963230938,None,80.08443049999187,None,80.79361929000588,None,stimuli_background,z,001,2022_Feb_10_0931,SAT,2021.2.3,144.03535201086999,
vSAT1,0.017,1,0.0,0.0,0,0,0,0,0,0,16,16,16,,,,,,,,,,,,,,,81.30775229999563,None,82.30726020000293,None,82.32785189998685,None,82.4321764900058,None,0.19629629,0.0712963,0,0,1,0.00617276004049927,None,82.8744131999847,None,83.10562629000633,None,stimuli_background,z,001,2022_Feb_10_0931,SAT,2021.2.3,144.03535201086999,
vSAT1,0.028999999999999998,2,-0.25,-0.25,0,0,0,0,0,0,17,17,17,,,,,,,,,,,,,,,83.61823550000554,None,85.61896550000529,None,85.65367770000012,None,85.7578735899995,None,0.19629629,0.0712963,1,0,0,0.0015592699928674847,None,86.20494369999506,None,86.7576681900071,None,stimuli_background,z,001,2022_Feb_10_0931,SAT,2021.2.3,144.03535201086999,
vSAT1,0.017,2,-0.25,0.25,1,0,0,0,0,0,18,18,18,,,,,,,,,,,,,,,87.27682830000413,None,89.27796869998565,None,89.29882719999296,None,89.40299618999124,None,0.19629629,0.0712963,0,0,1,0.00644526001997292,None,89.84427299999516,None,89.97224868998164,None,stimuli_background,z,001,2022_Feb_10_0931,SAT,2021.2.3,144.03535201086999,
vSAT1,0.05,2,0.0,0.0,0,0,0,0,0,0,19,19,19,,,,,,,,,,,,,,,90.48823069999344,None,92.4927372999955,None,92.54824869998265,None,92.65248378998949,None,0.19629629,0.0712963,1,0,0,0.00652686003013514,None,93.094743499998,None,93.22162778999773,None,stimuli_background,z,001,2022_Feb_10_0931,SAT,2021.2.3,144.03535201086999,
vSAT1,0.017,1,-0.25,0.25,1,0,0,0,0,0,20,20,20,,,,,,,,,,,,,,,93.73738730000332,None,94.74230879999232,None,94.76307719998294,None,94.86717218999983,None,0.19629629,0.0712963,1,0,0,0.0009574700088705868,None,95.31430329999421,None,95.67962478998815,None,stimuli_background,z,001,2022_Feb_10_0931,SAT,2021.2.3,144.03535201086999,
vSAT1,0.017,2,0.25,-0.25,1,0,0,0,0,0,21,21,21,,,,,,,,,,,,,,,96.19588199999998,None,98.19990370000596,None,98.22066920000361,None,98.32474669000366,None,0.19629629,0.0712963,1,0,0,0.0003226699773222208,None,98.76550549999229,None,99.08185249000671,None,stimuli_background,z,001,2022_Feb_10_0931,SAT,2021.2.3,144.03535201086999,
vSAT1,0.05,3,-0.25,-0.25,0,0,0,0,0,0,22,22,22,,,,,,,,,,,,,,,99.59859139999026,None,102.60188060000655,None,102.65723620000063,None,102.76146558999316,None,0.19629629,0.0712963,0,0,1,0.005355060042347759,None,103.20391419998487,None,103.44215108999633,None,stimuli_background,z,001,2022_Feb_10_0931,SAT,2021.2.3,144.03535201086999,
vSAT1,0.028999999999999998,2,-0.25,-0.25,0,0,0,0,0,0,23,23,23,,,,,,,,,,,,,,,103.95761720000883,None,105.96222799998941,None,105.99700820000726,None,106.10110859000706,None,0.19629629,0.0712963,0,0,1,0.004760969983180985,None,106.54469959999551,None,106.83004638999118,None,stimuli_background,z,001,2022_Feb_10_0931,SAT,2021.2.3,144.03535201086999,
vSAT1,0.028999999999999998,3,0.25,0.25,0,0,0,0,0,0,24,24,24,,,,,,,,,,,,,,,107.34884990000864,None,110.35024420000263,None,110.37784529998316,None,110.48211719000828,None,0.19629629,0.0712963,0,0,1,0.006487360020400956,None,110.92448129999684,None,111.57230247998959,None,stimuli_background,z,001,2022_Feb_10_0931,SAT,2021.2.3,144.03535201086999,
vSAT1,0.017,2,-0.25,-0.25,0,0,0,0,0,0,25,25,25,,,,,,,,,,,,,,,112.08609729999444,None,114.08564939998905,None,114.10656869999366,None,114.21053269000258,None,0.19629629,0.0712963,0,0,0,0.004158569994615391,None,114.65501449999283,None,116.14070559000247,None,,z,001,2022_Feb_10_0931,SAT,2021.2.3,144.03535201086999,
vSAT1,0.017,1,-0.25,-0.25,1,0,0,0,0,0,26,26,26,,,,,,,,,,,,,,,116.65868419999606,None,117.66144359999453,None,117.6820739999821,None,117.78623109000618,None,0.19629629,0.0712963,0,0,0,0.0015001699794083834,None,118.22568579998915,None,119.71653168998891,None,,z,001,2022_Feb_10_0931,SAT,2021.2.3,144.03535201086999,
vSAT1,0.017,1,0.0,0.0,0,0,0,0,0,0,27,27,27,,,,,,,,,,,,,,,120.22703179999371,None,121.23022609998588,None,121.25101939999149,None,121.35507149000186,None,0.19629629,0.0712963,0,0,1,0.0005742700304836035,None,121.79551679998985,None,122.1673312900064,None,stimuli_background,z,001,2022_Feb_10_0931,SAT,2021.2.3,144.03535201086999,
vSAT1,0.017,1,-0.25,0.25,1,0,0,0,0,0,28,28,28,,,,,,,,,,,,,,,122.68793449999066,None,123.68789289999404,None,123.70868879999034,None,123.81291248999769,None,0.19629629,0.0712963,1,0,0,6.11700234003365e-05,None,124.25403499999084,None,124.66685438998392,None,stimuli_background,z,001,2022_Feb_10_0931,SAT,2021.2.3,144.03535201086999,
vSAT1,0.05,1,0.25,-0.25,0,0,0,0,0,0,29,29,29,,,,,,,,,,,,,,,125.18751950000296,None,126.1874078999972,None,126.24300049999147,None,126.34717818999779,None,0.19629629,0.0712963,1,0,0,0.0010551700252108276,None,126.79387979998137,None,127.2081626900006,None,stimuli_background,z,001,2022_Feb_10_0931,SAT,2021.2.3,144.03535201086999,
vSAT1,,,,,,0,0,0,0,,,,,,,,,,,,,,,,,,,,,,,,,,,,,,,,,,,,,,,z,001,2022_Feb_10_0931,SAT,2021.2.3,144.03535201086999,
SAT2,0.028999999999999998,1,,,1,0,1,1,1,0,0,0,0,,,,,,,127.75007459998596,None,127.75007459998596,None,space,4.071100100001786,127.75007459998596,None,131.84339110000292,None,132.84592739999061,None,132.88057909999043,None,132.98475779000438,None,0.19629629,0.0712963,1,0,0,0.0065187600266654044,None,133.42596299998695,None,133.82491217998324,None,stimuli_background,z,001,2022_Feb_10_0931,SAT,2021.2.3,144.03535201086999,
SAT2,0.028999999999999998,3,,,0,0,1,1,1,0,1,1,1,,,,,,,,,,,,,,,134.33797609998146,None,137.33824589999858,None,137.37257179999142,None,137.4770220900071,None,0.19629629,0.0712963,1,0,0,0.0006339699903037399,None,137.92364200000884,None,138.45589488999104,None,stimuli_background,z,001,2022_Feb_10_0931,SAT,2021.2.3,144.03535201086999,
,,,,,,,,,,,,,,,,,,,,,,,,,,,,138.96901709999656,None,140.9692544999998,None,141.0247292999993,None,141.1289456900093,None,,,,,,,,,,,,,,,,,,,
