task_order,num_stim,match_num,match,corr_key,n_back_loop.thisRepN,n_back_loop.thisTrialN,n_back_loop.thisN,n_back_loop.thisIndex,stim_loop.thisRepN,stim_loop.thisTrialN,stim_loop.thisN,stim_loop.thisIndex,exp_zero_back_text.started,exp_zero_back_text.stopped,exp_one_back_text.started,exp_one_back_text.stopped,exp_two_back_text.started,exp_two_back_text.stopped,stim_text.started,stim_text.stopped,stim_resp.keys,stim_resp.corr,stim_resp.started,stim_resp.stopped,participant,session,date,expName,psychopyVersion,frameRate,
zero_back1,2,2,1,right,0,0,0,0,0,0,0,0,8.996826799993869,None,8.996826799993869,None,8.996826799993869,None,11.038561599998502,11.545546599983936,None,0,11.038561599998502,None,,001,2022_Apr_02_1047,n_back,2021.2.3,143.97811528722121,
zero_back1,2,2,1,right,0,0,0,0,0,1,1,1,,,,,,,14.513558500009822,15.018871100008255,None,0,14.513558500009822,None,,001,2022_Apr_02_1047,n_back,2021.2.3,143.97811528722121,
zero_back1,2,2,1,right,0,0,0,0,0,2,2,2,,,,,,,18.01902079998399,18.518198700010544,None,0,18.01902079998399,None,,001,2022_Apr_02_1047,n_back,2021.2.3,143.97811528722121,
zero_back1,3,2,0,left,0,0,0,0,0,3,3,3,,,,,,,21.529785599996103,22.031375699996715,None,0,21.529785599996103,None,,001,2022_Apr_02_1047,n_back,2021.2.3,143.97811528722121,
zero_back1,9,2,0,left,0,0,0,0,0,4,4,4,,,,,,,25.036935099982657,25.537609399994835,None,0,25.036935099982657,None,,001,2022_Apr_02_1047,n_back,2021.2.3,143.97811528722121,
zero_back1,2,2,1,right,0,0,0,0,0,5,5,5,,,,,,,28.538965299987467,29.043847399996594,None,0,28.538965299987467,None,,001,2022_Apr_02_1047,n_back,2021.2.3,143.97811528722121,
zero_back1,2,2,1,right,0,0,0,0,0,6,6,6,,,,,,,32.04392860000371,32.54308659999515,None,0,32.04392860000371,None,,001,2022_Apr_02_1047,n_back,2021.2.3,143.97811528722121,
zero_back1,5,2,0,left,0,0,0,0,0,7,7,7,,,,,,,35.55687189998571,36.05642439998337,None,0,35.55687189998571,None,,001,2022_Apr_02_1047,n_back,2021.2.3,143.97811528722121,
zero_back1,8,2,0,left,0,0,0,0,0,8,8,8,,,,,,,39.06136200000765,39.562753999984125,None,0,39.06136200000765,None,,001,2022_Apr_02_1047,n_back,2021.2.3,143.97811528722121,
zero_back1,8,2,0,left,0,0,0,0,0,9,9,9,,,,,,,42.56309989999863,43.06899030000204,None,0,42.56309989999863,None,,001,2022_Apr_02_1047,n_back,2021.2.3,143.97811528722121,
zero_back1,2,2,1,right,0,0,0,0,0,10,10,10,,,,,,,46.069166800007224,46.56819399999222,None,0,46.069166800007224,None,,001,2022_Apr_02_1047,n_back,2021.2.3,143.97811528722121,
zero_back1,6,2,0,left,0,0,0,0,0,11,11,11,,,,,,,49.58247900000424,50.08140419999836,None,0,49.58247900000424,None,,001,2022_Apr_02_1047,n_back,2021.2.3,143.97811528722121,
zero_back1,2,2,1,right,0,0,0,0,0,12,12,12,,,,,,,53.08234319998883,53.58764789998531,None,0,53.08234319998883,None,,001,2022_Apr_02_1047,n_back,2021.2.3,143.97811528722121,
zero_back1,2,2,1,right,0,0,0,0,0,13,13,13,,,,,,,56.58798429998569,57.08696509999572,None,0,56.58798429998569,None,,001,2022_Apr_02_1047,n_back,2021.2.3,143.97811528722121,
zero_back1,3,2,0,left,0,0,0,0,0,14,14,14,,,,,,,60.094681499991566,60.600296299991896,None,0,60.094681499991566,None,,001,2022_Apr_02_1047,n_back,2021.2.3,143.97811528722121,
zero_back1,5,2,0,left,0,0,0,0,0,15,15,15,,,,,,,63.60026380000636,64.09951430000365,None,0,63.60026380000636,None,,001,2022_Apr_02_1047,n_back,2021.2.3,143.97811528722121,
zero_back1,0,2,0,left,0,0,0,0,0,16,16,16,,,,,,,67.11166930000763,67.61269750000793,None,0,67.11166930000763,None,,001,2022_Apr_02_1047,n_back,2021.2.3,143.97811528722121,
zero_back1,1,2,0,left,0,0,0,0,0,17,17,17,,,,,,,70.61714180000126,71.11893229998532,None,0,70.61714180000126,None,,001,2022_Apr_02_1047,n_back,2021.2.3,143.97811528722121,
zero_back1,1,2,0,left,0,0,0,0,0,18,18,18,,,,,,,74.11973479998414,74.6252273999853,None,0,74.11973479998414,None,,001,2022_Apr_02_1047,n_back,2021.2.3,143.97811528722121,
zero_back1,4,2,0,left,0,0,0,0,0,19,19,19,,,,,,,77.63122429998475,78.13149239998893,None,0,77.63122429998475,None,,001,2022_Apr_02_1047,n_back,2021.2.3,143.97811528722121,
zero_back1,,,,,0,0,0,0,,,,,,,,,,,,,,,,,,001,2022_Apr_02_1047,n_back,2021.2.3,143.97811528722121,
zero_back2,6,8,0,left,0,1,1,1,0,0,0,0,81.17138879999402,None,81.17138879999402,None,81.17138879999402,None,86.44188900000881,86.94220769999083,None,0,86.44188900000881,None,,001,2022_Apr_02_1047,n_back,2021.2.3,143.97811528722121,
zero_back2,7,8,0,left,0,1,1,1,0,1,1,1,,,,,,,89.94972770000459,90.45546689999173,None,0,89.94972770000459,89.94972770000459,,001,2022_Apr_02_1047,n_back,2021.2.3,143.97811528722121,
zero_back2,4,8,0,left,0,1,1,1,0,2,2,2,,,,,,,93.44964390000678,93.95475450000959,None,0,93.44964390000678,None,,001,2022_Apr_02_1047,n_back,2021.2.3,143.97811528722121,
zero_back2,5,8,0,left,0,1,1,1,0,3,3,3,,,,,,,96.95500089999405,97.45410070000798,None,0,96.95500089999405,None,,001,2022_Apr_02_1047,n_back,2021.2.3,143.97811528722121,
zero_back2,3,8,0,left,0,1,1,1,0,4,4,4,,,,,,,100.46163440000964,100.96718609999516,None,0,100.46163440000964,None,,001,2022_Apr_02_1047,n_back,2021.2.3,143.97811528722121,
zero_back2,7,8,0,left,0,1,1,1,0,5,5,5,,,,,,,103.96857219998492,104.47351129999151,None,0,103.96857219998492,None,,001,2022_Apr_02_1047,n_back,2021.2.3,143.97811528722121,
zero_back2,8,8,1,right,0,1,1,1,0,6,6,6,,,,,,,107.47406849998515,107.97975599998608,None,0,107.47406849998515,None,,001,2022_Apr_02_1047,n_back,2021.2.3,143.97811528722121,
zero_back2,2,8,0,left,0,1,1,1,0,7,7,7,,,,,,,110.98034010000993,111.4859584000078,None,0,110.98034010000993,None,,001,2022_Apr_02_1047,n_back,2021.2.3,143.97811528722121,
zero_back2,0,8,0,left,0,1,1,1,0,8,8,8,,,,,,,114.4865892000089,114.99235250000493,None,0,114.4865892000089,None,,001,2022_Apr_02_1047,n_back,2021.2.3,143.97811528722121,
zero_back2,4,8,0,left,0,1,1,1,0,9,9,9,,,,,,,117.99267820001114,118.49160410001059,None,0,117.99267820001114,None,,001,2022_Apr_02_1047,n_back,2021.2.3,143.97811528722121,
zero_back2,8,8,1,right,0,1,1,1,0,10,10,10,,,,,,,121.49861179999425,121.99788579999586,None,0,121.49861179999425,None,,001,2022_Apr_02_1047,n_back,2021.2.3,143.97811528722121,
zero_back2,8,8,1,right,0,1,1,1,0,11,11,11,,,,,,,125.00550400000066,125.5109140999848,None,0,125.00550400000066,None,,001,2022_Apr_02_1047,n_back,2021.2.3,143.97811528722121,
zero_back2,8,8,1,right,0,1,1,1,0,12,12,12,,,,,,,128.51181830000132,129.01730209999369,None,0,128.51181830000132,None,,001,2022_Apr_02_1047,n_back,2021.2.3,143.97811528722121,
zero_back2,8,8,1,right,0,1,1,1,0,13,13,13,,,,,,,132.01791920000687,132.5235507999896,None,0,132.01791920000687,None,,001,2022_Apr_02_1047,n_back,2021.2.3,143.97811528722121,
zero_back2,8,8,1,right,0,1,1,1,0,14,14,14,,,,,,,135.52411840000423,136.0298106999835,None,0,135.52411840000423,None,,001,2022_Apr_02_1047,n_back,2021.2.3,143.97811528722121,
zero_back2,8,8,1,right,0,1,1,1,0,15,15,15,,,,,,,139.03038579999702,139.53609499998856,None,0,139.03038579999702,None,,001,2022_Apr_02_1047,n_back,2021.2.3,143.97811528722121,
zero_back2,8,8,1,right,0,1,1,1,0,16,16,16,,,,,,,142.5363618999836,143.03538139999728,None,0,142.5363618999836,None,,001,2022_Apr_02_1047,n_back,2021.2.3,143.97811528722121,
zero_back2,6,8,0,left,0,1,1,1,0,17,17,17,,,,,,,146.04331579999416,146.54859520000173,None,0,146.04331579999416,None,,001,2022_Apr_02_1047,n_back,2021.2.3,143.97811528722121,
zero_back2,3,8,0,left,0,1,1,1,0,18,18,18,,,,,,,149.54968609998468,150.05483429998276,None,0,149.54968609998468,None,,001,2022_Apr_02_1047,n_back,2021.2.3,143.97811528722121,
